consent_item,slide_text,instruction,triangle_pos,arrow_posy,arrow_posx,item_no,sentence,question,correct_option,granularity,file_name,file_path,info_sheet_loop.thisRepN,info_sheet_loop.thisTrialN,info_sheet_loop.thisN,info_sheet_loop.thisIndex,consent_loop.thisRepN,consent_loop.thisTrialN,consent_loop.thisN,consent_loop.thisIndex,instructions_loop.thisRepN,instructions_loop.thisTrialN,instructions_loop.thisN,instructions_loop.thisIndex,trials.thisRepN,trials.thisTrialN,trials.thisN,trials.thisIndex,study_title.started,consent_key.keys,consent_key.rt,ageResp.started,age.started,gender.started,genderResp1.started,genderResp2.started,continue_box_2.started,continue_text_2.started,mouse_3.started,ageResp.text,genderResp1.response,genderResp1.rt,genderResp2.text,mouse_3.x,mouse_3.y,mouse_3.leftButton,mouse_3.midButton,mouse_3.rightButton,mouse_3.clicked_name,edu_slider.response,q1_slider.response,q2_slider.response,q3_slider.response,q4_slider.response,q5_slider.response,slide_number.started,instruction_text.started,spacebar_3.started,instruction_image.started,EXsentence1.started,question_text_2.started,slider_image.started,triangle.started,arrow.started,next_slide_key.started,next_slide_key.keys,next_slide_key.rt,sentence_text.started,image.started,question_text.started,slider.started,spacebar_text.started,spacebar_continue.started,slider.response,slider.rt,spacebar_continue.keys,spacebar_continue.rt,section_text.started,ad_question_text1.started,scales_images.started,add_question_text2.started,next_slide_text.started,spacebar_continue_7.started,scale_slider.response,spacebar_continue_7.keys,spacebar_continue_7.rt,spacebar_continue_3.keys,spacebar_continue_3.rt,textbox.started,continue_box.started,continue_text.started,comment_instructions.started,textbox.text,total_duration,participant,session,study_id,date,expName,psychopyVersion,frameRate,
,,,,,,,,,,,,,0,0,0,0,,,,,,,,,,,,,,,,,,,,,,,,,,,,,,,,,,,,,,,,,,,,,,,,,,,,,,,,,,,,,,,,,,,,,,,,,,,,,,,,,,2023-03-22_22h04.04.242,BZ,2022.2.4,None,
,,,,,,,,,,,,,1,0,1,0,,,,,,,,,,,,,,,,,,,,,,,,,,,,,,,,,,,,,,,,,,,,,,,,,,,,,,,,,,,,,,,,,,,,,,,,,,,,,,,,,,2023-03-22_22h04.04.242,BZ,2022.2.4,None,
,,,,,,,,,,,,,2,0,2,0,,,,,,,,,,,,,,,,,,,,,,,,,,,,,,,,,,,,,,,,,,,,,,,,,,,,,,,,,,,,,,,,,,,,,,,,,,,,,,,,,,2023-03-22_22h04.04.242,BZ,2022.2.4,None,
,,,,,,,,,,,,,3,0,3,0,,,,,,,,,,,,,,,,,,,,,,,,,,,,,,,,,,,,,,,,,,,,,,,,,,,,,,,,,,,,,,,,,,,,,,,,,,,,,,,,,,2023-03-22_22h04.04.242,BZ,2022.2.4,None,
,,,,,,,,,,,,,4,0,4,0,,,,,,,,,,,,,,,,,,,,,,,,,,,,,,,,,,,,,,,,,,,,,,,,,,,,,,,,,,,,,,,,,,,,,,,,,,,,,,,,,,2023-03-22_22h04.04.242,BZ,2022.2.4,None,
"1 of 6
I confirm that I have read the attached information sheet (Version A5.0; Date 26/05/2022) for the above study and have had the opportunity to consider the information and ask questions and had these answered satisfactorily.",,,,,,,,,,,,,,,,,0,0,0,0,,,,,,,,,24.14894737896975,y,0.7599032380385324,,,,,,,,,,,,,,,,,,,,,,,,,,,,,,,,,,,,,,,,,,,,,,,,,,,,,,,,,,,,,,,,,,,2023-03-22_22h04.04.242,BZ,2022.2.4,None,
"2 of 6
I understand that my participation in the study is voluntary and that I am free to withdraw at any time without giving a reason and without detriment to myself (although I will not receive payment for this study). I understand that it will not be possible to remove my data from the project once it has been anonymised and forms part of the data set.  

I agree to take part on this basis.",,,,,,,,,,,,,,,,,0,1,1,1,,,,,,,,,26.925391108030453,y,0.22268371295649558,,,,,,,,,,,,,,,,,,,,,,,,,,,,,,,,,,,,,,,,,,,,,,,,,,,,,,,,,,,,,,,,,,,2023-03-22_22h04.04.242,BZ,2022.2.4,None,
"3 of 6
I agree that any data collected may be included in anonymous form in student theses/publications/conference presentations.",,,,,,,,,,,,,,,,,0,2,2,2,,,,,,,,,29.1412883780431,y,0.07714382407721132,,,,,,,,,,,,,,,,,,,,,,,,,,,,,,,,,,,,,,,,,,,,,,,,,,,,,,,,,,,,,,,,,,,2023-03-22_22h04.04.242,BZ,2022.2.4,None,
"4 of 6
I understand that a fully anonymised dataset will be deposited in public open data repositories.",,,,,,,,,,,,,,,,,0,3,3,3,,,,,,,,,31.240064903046004,y,9.379546502954327,,,,,,,,,,,,,,,,,,,,,,,,,,,,,,,,,,,,,,,,,,,,,,,,,,,,,,,,,,,,,,,,,,,2023-03-22_22h04.04.242,BZ,2022.2.4,None,
"5 of 6
I understand that data collected during the study may be looked at by individuals from The University of Manchester or regulatory authorities, where it is relevant to my taking part in this research. I give permission for these individuals to have access to my data.",,,,,,,,,,,,,,,,,0,4,4,4,,,,,,,,,42.62938937707804,y,0.035367537988349795,,,,,,,,,,,,,,,,,,,,,,,,,,,,,,,,,,,,,,,,,,,,,,,,,,,,,,,,,,,,,,,,,,,2023-03-22_22h04.04.242,BZ,2022.2.4,None,
"6 of 6
I agree to take part in this study.",,,,,,,,,,,,,,,,,0,5,5,5,,,,,,,,,44.68836152704898,y,0.040607150993309915,,,,,,,,,,,,,,,,,,,,,,,,,,,,,,,,,,,,,,,,,,,,,,,,,,,,,,,,,,,,,,,,,,,2023-03-22_22h04.04.242,BZ,2022.2.4,None,
,,,,,,,,,,,,,,,,,,,,,,,,,,,,,,,,46.81251371698454,46.81251371698454,46.81251371698454,46.81251371698454,46.81251371698454,46.81251371698454,46.81251371698454,3.517951354966499,20,5.0,3.50520424998831,,0.053125,-0.39479166666666665,1,0,0,continue_box_2,,,,,,,,,,,,,,,,,,,,,,,,,,,,,,,,,,,,,,,,,,,,,,,,,2023-03-22_22h04.04.242,BZ,2022.2.4,None,
,Slide 1 of 8,This experiment is about using information to make decisions. Each trial will look similar to this:,10.0,10.0,10.0,,,,,,,,,,,,,,,,0,0,0,0,,,,,,,,,,,,,,,,,,,,,,,,,,4.0,3.0,3.0,3.0,3.0,3.0,55.785845270962454,55.785845270962454,55.785845270962454,55.785845270962454,55.785845270962454,55.785845270962454,55.785845270962454,55.785845270962454,55.785845270962454,57.75500510202255,space,0.19262778805568814,,,,,,,,,,,,,,,,,,,,,,,,,,,,,,,2023-03-22_22h04.04.242,BZ,2022.2.4,None,
,Slide 2 of 8,"First, you should read the text above the image.",10.0,0.15,-0.55,,,,,,,,,,,,,,,,0,1,1,1,,,,,,,,,,,,,,,,,,,,,,,,,,,,,,,,57.97428446402773,57.97428446402773,57.97428446402773,57.97428446402773,57.97428446402773,57.97428446402773,57.97428446402773,57.97428446402773,57.97428446402773,59.971996724023484,space,0.13389664504211396,,,,,,,,,,,,,,,,,,,,,,,,,,,,,,,2023-03-22_22h04.04.242,BZ,2022.2.4,None,
,Slide 3 of 8,Then you should look at the image. It will show a map of a country. The colour of each region of the country reflects its pollution level. Pollution levels are displayed in standardised units.,10.0,-0.075,-0.24,,,,,,,,,,,,,,,,0,2,2,2,,,,,,,,,,,,,,,,,,,,,,,,,,,,,,,,60.1294282960007,60.1294282960007,60.1294282960007,60.1294282960007,60.1294282960007,60.1294282960007,60.1294282960007,60.1294282960007,60.1294282960007,62.12230620707851,space,0.1164431880461052,,,,,,,,,,,,,,,,,,,,,,,,,,,,,,,2023-03-22_22h04.04.242,BZ,2022.2.4,None,
,Slide 4 of 8,Data on different types of pollution are shown throughout the experiment. (A colour scale may be provided or not provided to you.),10.0,-0.075,-0.24,,,,,,,,,,,,,,,,0,3,3,3,,,,,,,,,,,,,,,,,,,,,,,,,,,,,,,,62.25984818604775,62.25984818604775,62.25984818604775,62.25984818604775,62.25984818604775,62.25984818604775,62.25984818604775,62.25984818604775,62.25984818604775,64.25545317702927,space,0.12164718308486044,,,,,,,,,,,,,,,,,,,,,,,,,,,,,,,2023-03-22_22h04.04.242,BZ,2022.2.4,None,
,Slide 5 of 8,"Then you should read the question below the image. Here, the question asks you to rate how severe the pollution levels in the pointed region is.",10.0,-0.28,-0.53,,,,,,,,,,,,,,,,0,4,4,4,,,,,,,,,,,,,,,,,,,,,,,,,,,,,,,,64.41172000102233,64.41172000102233,64.41172000102233,64.41172000102233,64.41172000102233,64.41172000102233,64.41172000102233,64.41172000102233,64.41172000102233,66.4052646040218,space,0.6190436630276963,,,,,,,,,,,,,,,,,,,,,,,,,,,,,,,2023-03-22_22h04.04.242,BZ,2022.2.4,None,
,Slide 6 of 8,You should move the marker to indicate your response.,0.0,-0.36,-0.45,,,,,,,,,,,,,,,,0,5,5,5,,,,,,,,,,,,,,,,,,,,,,,,,,,,,,,,67.05739511002321,67.05739511002321,67.05739511002321,67.05739511002321,67.05739511002321,67.05739511002321,67.05739511002321,67.05739511002321,67.05739511002321,69.05547988996841,space,0.14396069198846817,,,,,,,,,,,,,,,,,,,,,,,,,,,,,,,2023-03-22_22h04.04.242,BZ,2022.2.4,None,
,Slide 7 of 8,"You can change your answer as many times as you like, then you should press the spacebar to move on to the next trial.",0.1,-0.36,-0.45,,,,,,,,,,,,,,,,0,6,6,6,,,,,,,,,,,,,,,,,,,,,,,,,,,,,,,,69.22576910199132,69.22576910199132,69.22576910199132,69.22576910199132,69.22576910199132,69.22576910199132,69.22576910199132,69.22576910199132,69.22576910199132,71.22192276106216,space,0.6785526010207832,,,,,,,,,,,,,,,,,,,,,,,,,,,,,,,2023-03-22_22h04.04.242,BZ,2022.2.4,None,
,Slide 8 of 8,Press the spacebar to begin the experiment.,-0.1,10.0,10.0,,,,,,,,,,,,,,,,0,7,7,7,,,,,,,,,,,,,,,,,,,,,,,,,,,,,,,,71.92238891602028,71.92238891602028,71.92238891602028,71.92238891602028,71.92238891602028,71.92238891602028,71.92238891602028,71.92238891602028,71.92238891602028,73.90498043806292,space,0.5930371889844537,,,,,,,,,,,,,,,,,,,,,,,,,,,,,,,2023-03-22_22h04.04.242,BZ,2022.2.4,None,
,,,,,,45,This map shows the levels of a certain type of pollution in this country:,How severe do you think the environmental pollution in this pointed region is?,NA,0,5is,images/pointed_maps_images/5is.jpeg,,,,,,,,,,,,,0,0,0,44,,,,,,,,,,,,,,,,,,,,,,,,,,,,,,,,,,,,,,,,74.60168884205632,74.60168884205632,74.60168884205632,74.60168884205632,74.60168884205632,80.7049863160355,1.7791666666666668,6.113239586004056,space,0.40802670805715024,,,,,,,,,,,,,,,,,,,,,2023-03-22_22h04.04.242,BZ,2022.2.4,None,
,,,,,,11,This map shows the levels of a certain type of pollution in this country:,How severe do you think the environmental pollution in this pointed region is?,NA,0,11is,images/pointed_maps_images/11is.jpeg,,,,,,,,,,,,,0,1,1,10,,,,,,,,,,,,,,,,,,,,,,,,,,,,,,,,,,,,,,,,81.14967102301307,81.14967102301307,81.14967102301307,81.14967102301307,81.14967102301307,81.85501454106998,1.6479166666666667,0.6909387030173093,space,0.023913203040137887,,,,,,,,,,,,,,,,,,,,,2023-03-22_22h04.04.242,BZ,2022.2.4,None,
,,,,,,63,This map shows the levels of a certain type of pollution in this country:,How severe do you think the environmental pollution in this pointed region is?,NA,0,3cn,images/pointed_maps_images/3cn.jpeg,,,,,,,,,,,,,0,2,2,62,,,,,,,,,,,,,,,,,,,,,,,,,,,,,,,,,,,,,,,,81.91637378302403,81.91637378302403,81.91637378302403,81.91637378302403,81.91637378302403,82.03795227699447,1.6479166666666667,0.10682895604986697,space,0.027364242007024586,,,,,,,,,,,,,,,,,,,,,2023-03-22_22h04.04.242,BZ,2022.2.4,None,
,,,,,,15,This map shows the levels of a certain type of pollution in this country:,How severe do you think the environmental pollution in this pointed region is?,NA,0,15is,images/pointed_maps_images/15is.jpeg,,,,,,,,,,,,,0,3,3,14,,,,,,,,,,,,,,,,,,,,,,,,,,,,,,,,,,,,,,,,82.09867302002385,82.09867302002385,82.09867302002385,82.09867302002385,82.09867302002385,82.17150195804425,1.6479166666666667,0.05775488493964076,space,0.044456381001509726,,,,,,,,,,,,,,,,,,,,,2023-03-22_22h04.04.242,BZ,2022.2.4,None,
,,,,,,9,This map shows the levels of a certain type of pollution in this country:,How severe do you think the environmental pollution in this pointed region is?,NA,0,9cs,images/pointed_maps_images/9cs.jpeg,,,,,,,,,,,,,0,4,4,8,,,,,,,,,,,,,,,,,,,,,,,,,,,,,,,,,,,,,,,,82.24781852902379,82.24781852902379,82.24781852902379,82.24781852902379,82.24781852902379,82.2877769380575,1.6479166666666667,0.02772916597314179,space,0.07368086010683328,,,,,,,,,,,,,,,,,,,,,2023-03-22_22h04.04.242,BZ,2022.2.4,None,
,,,,,,78,This map shows the levels of a certain type of pollution in this country:,How severe do you think the environmental pollution in this pointed region is?,NA,0,18cs,images/pointed_maps_images/18cs.jpeg,,,,,,,,,,,,,0,5,5,77,,,,,,,,,,,,,,,,,,,,,,,,,,,,,,,,,,,,,,,,82.39612817403395,82.39612817403395,82.39612817403395,82.39612817403395,82.39612817403395,82.42159705003724,1.6479166666666667,0.015607196022756398,space,0.08870299998670816,,,,,,,,,,,,,,,,,,,,,2023-03-22_22h04.04.242,BZ,2022.2.4,None,
,,,,,,5,This map shows the levels of a certain type of pollution in this country:,How severe do you think the environmental pollution in this pointed region is?,NA,0,5cs,images/pointed_maps_images/5cs.jpeg,,,,,,,,,,,,,0,6,6,4,,,,,,,,,,,,,,,,,,,,,,,,,,,,,,,,,,,,,,,,82.5469022160396,82.5469022160396,82.5469022160396,82.5469022160396,82.5469022160396,82.70452924002893,1.6479166666666667,0.2748971009859815,space,0.10160540405195206,,,,,,,,,,,,,,,,,,,,,2023-03-22_22h04.04.242,BZ,2022.2.4,None,
,,,,,,22,This map shows the levels of a certain type of pollution in this country:,How severe do you think the environmental pollution in this pointed region is?,NA,0,2is,images/pointed_maps_images/2is.jpeg,,,,,,,,,,,,,0,7,7,21,,,,,,,,,,,,,,,,,,,,,,,,,,,,,,,,,,,,,,,,82.84761761303525,82.84761761303525,82.84761761303525,82.84761761303525,82.84761761303525,82.97125748102553,1.6479166666666667,0.22476322099100798,space,0.1429532819893211,,,,,,,,,,,,,,,,,,,,,2023-03-22_22h04.04.242,BZ,2022.2.4,None,
,,,,,,65,This map shows the levels of a certain type of pollution in this country:,How severe do you think the environmental pollution in this pointed region is?,NA,0,5in,images/pointed_maps_images/5in.jpeg,,,,,,,,,,,,,0,8,8,64,,,,,,,,,,,,,,,,,,,,,,,,,,,,,,,,,,,,,,,,83.14882528805174,83.14882528805174,83.14882528805174,83.14882528805174,83.14882528805174,83.2227495800471,1.6479166666666667,0.07102939405012876,space,0.06933190301060677,,,,,,,,,,,,,,,,,,,,,2023-03-22_22h04.04.242,BZ,2022.2.4,None,
,,,,,,26,This map shows the levels of a certain type of pollution in this country:,How severe do you think the environmental pollution in this pointed region is?,NA,0,6is,images/pointed_maps_images/6is.jpeg,,,,,,,,,,,,,0,9,9,25,,,,,,,,,,,,,,,,,,,,,,,,,,,,,,,,,,,,,,,,83.42428459599614,83.42428459599614,83.42428459599614,83.42428459599614,83.42428459599614,83.50220523006283,1.6479166666666667,0.09137650800403208,space,0.06278830906376243,,,,,,,,,,,,,,,,,,,,,2023-03-22_22h04.04.242,BZ,2022.2.4,None,
,,,,,,69,This map shows the levels of a certain type of pollution in this country:,How severe do you think the environmental pollution in this pointed region is?,NA,0,9in,images/pointed_maps_images/9in.jpeg,,,,,,,,,,,,,0,10,10,68,,,,,,,,,,,,,,,,,,,,,,,,,,,,,,,,,,,,,,,,83.63188762497157,83.63188762497157,83.63188762497157,83.63188762497157,83.63188762497157,83.80462231102865,1.6479166666666667,0.160725905909203,space,0.05891343392431736,,,,,,,,,,,,,,,,,,,,,2023-03-22_22h04.04.242,BZ,2022.2.4,None,
,,,,,,42,This map shows the levels of a certain type of pollution in this country:,How severe do you think the environmental pollution in this pointed region is?,NA,0,2in,images/pointed_maps_images/2in.jpeg,,,,,,,,,,,,,0,11,11,41,,,,,,,,,,,,,,,,,,,,,,,,,,,,,,,,,,,,,,,,83.91524421307258,83.91524421307258,83.91524421307258,83.91524421307258,83.91524421307258,84.07132996304426,1.6479166666666667,0.2926183199742809,space,0.12418809800874442,,,,,,,,,,,,,,,,,,,,,2023-03-22_22h04.04.242,BZ,2022.2.4,None,
,,,,,,55,This map shows the levels of a certain type of pollution in this country:,How severe do you think the environmental pollution in this pointed region is?,NA,0,15cs,images/pointed_maps_images/15cs.jpeg,,,,,,,,,,,,,0,12,12,54,,,,,,,,,,,,,,,,,,,,,,,,,,,,,,,,,,,,,,,,84.2333347509848,84.2333347509848,84.2333347509848,84.2333347509848,84.2333347509848,84.38816217507701,1.6479166666666667,0.2900530709885061,space,0.1432938000652939,,,,,,,,,,,,,,,,,,,,,2023-03-22_22h04.04.242,BZ,2022.2.4,None,
,,,,,,24,This map shows the levels of a certain type of pollution in this country:,How severe do you think the environmental pollution in this pointed region is?,NA,0,4cs,images/pointed_maps_images/4cs.jpeg,,,,,,,,,,,,,0,13,13,23,,,,,,,,,,,,,,,,,,,,,,,,,,,,,,,,,,,,,,,,84.56670415506233,84.56670415506233,84.56670415506233,84.56670415506233,84.56670415506233,84.68811061303131,1.6479166666666667,0.10595124505925924,space,0.014893987099640071,,,,,,,,,,,,,,,,,,,,,2023-03-22_22h04.04.242,BZ,2022.2.4,None,
,,,,,,72,This map shows the levels of a certain type of pollution in this country:,How severe do you think the environmental pollution in this pointed region is?,NA,0,12is,images/pointed_maps_images/12is.jpeg,,,,,,,,,,,,,0,14,14,71,,,,,,,,,,,,,,,,,,,,,,,,,,,,,,,,,,,,,,,,84.73375470598694,84.73375470598694,84.73375470598694,84.73375470598694,84.73375470598694,84.82136629498564,1.6479166666666667,0.07339807495009154,space,0.025118315941654146,,,,,,,,,,,,,,,,,,,,,2023-03-22_22h04.04.242,BZ,2022.2.4,None,
,,,,,,39,This map shows the levels of a certain type of pollution in this country:,How severe do you think the environmental pollution in this pointed region is?,NA,0,19in,images/pointed_maps_images/19in.jpeg,,,,,,,,,,,,,0,15,15,38,,,,,,,,,,,,,,,,,,,,,,,,,,,,,,,,,,,,,,,,84.8832536280388,84.8832536280388,84.8832536280388,84.8832536280388,84.8832536280388,84.98811656003818,1.6479166666666667,0.09055193199310452,space,0.027134157018736005,,,,,,,,,,,,,,,,,,,,,2023-03-22_22h04.04.242,BZ,2022.2.4,None,
,,,,,,52,This map shows the levels of a certain type of pollution in this country:,How severe do you think the environmental pollution in this pointed region is?,NA,0,12cn,images/pointed_maps_images/12cn.jpeg,,,,,,,,,,,,,0,16,16,51,,,,,,,,,,,,,,,,,,,,,,,,,,,,,,,,,,,,,,,,85.04792245803401,85.04792245803401,85.04792245803401,85.04792245803401,85.04792245803401,85.15450765402056,1.6479166666666667,0.09162224398460239,space,0.03600066597573459,,,,,,,,,,,,,,,,,,,,,2023-03-22_22h04.04.242,BZ,2022.2.4,None,
,,,,,,56,This map shows the levels of a certain type of pollution in this country:,How severe do you think the environmental pollution in this pointed region is?,NA,0,16cn,images/pointed_maps_images/16cn.jpeg,,,,,,,,,,,,,0,17,17,55,,,,,,,,,,,,,,,,,,,,,,,,,,,,,,,,,,,,,,,,85.23005913605448,85.23005913605448,85.23005913605448,85.23005913605448,85.23005913605448,85.30543051601853,1.6479166666666667,0.057298808940686285,space,0.052386224968358874,,,,,,,,,,,,,,,,,,,,,2023-03-22_22h04.04.242,BZ,2022.2.4,None,
,,,,,,29,This map shows the levels of a certain type of pollution in this country:,How severe do you think the environmental pollution in this pointed region is?,NA,0,9cn,images/pointed_maps_images/9cn.jpeg,,,,,,,,,,,,,0,18,18,28,,,,,,,,,,,,,,,,,,,,,,,,,,,,,,,,,,,,,,,,85.39571556297597,85.39571556297597,85.39571556297597,85.39571556297597,85.39571556297597,85.43790152098518,1.6479166666666667,0.02661686495412141,space,0.09344031405635178,,,,,,,,,,,,,,,,,,,,,2023-03-22_22h04.04.242,BZ,2022.2.4,None,
,,,,,,16,This map shows the levels of a certain type of pollution in this country:,How severe do you think the environmental pollution in this pointed region is?,NA,0,16in,images/pointed_maps_images/16in.jpeg,,,,,,,,,,,,,0,19,19,15,,,,,,,,,,,,,,,,,,,,,,,,,,,,,,,,,,,,,,,,85.56515876401681,85.56515876401681,85.56515876401681,85.56515876401681,85.56515876401681,85.58789203700144,1.6479166666666667,0.018349529011175036,space,0.11594953492749482,,,,,,,,,,,,,,,,,,,,,2023-03-22_22h04.04.242,BZ,2022.2.4,None,
,,,,,,19,This map shows the levels of a certain type of pollution in this country:,How severe do you think the environmental pollution in this pointed region is?,NA,0,19is,images/pointed_maps_images/19is.jpeg,,,,,,,,,,,,,0,20,20,18,,,,,,,,,,,,,,,,,,,,,,,,,,,,,,,,,,,,,,,,85.7307852980448,85.7307852980448,85.7307852980448,85.7307852980448,85.7307852980448,85.88805635506287,1.6479166666666667,0.14399835700169206,space,0.13741246599238366,,,,,,,,,,,,,,,,,,,,,2023-03-22_22h04.04.242,BZ,2022.2.4,None,
,,,,,,6,This map shows the levels of a certain type of pollution in this country:,How severe do you think the environmental pollution in this pointed region is?,NA,0,6cn,images/pointed_maps_images/6cn.jpeg,,,,,,,,,,,,,0,21,21,5,,,,,,,,,,,,,,,,,,,,,,,,,,,,,,,,,,,,,,,,86.06339072796982,86.06339072796982,86.06339072796982,86.06339072796982,86.06339072796982,86.23819964600261,1.6479166666666667,0.3071982089895755,space,0.1273942010011524,,,,,,,,,,,,,,,,,,,,,2023-03-22_22h04.04.242,BZ,2022.2.4,None,
,,,,,,36,This map shows the levels of a certain type of pollution in this country:,How severe do you think the environmental pollution in this pointed region is?,NA,0,16cs,images/pointed_maps_images/16cs.jpeg,,,,,,,,,,,,,0,22,22,35,,,,,,,,,,,,,,,,,,,,,,,,,,,,,,,,,,,,,,,,86.39843987999484,86.39843987999484,86.39843987999484,86.39843987999484,86.39843987999484,86.53771414700896,1.6479166666666667,0.2904248320264742,space,0.16072205698583275,,,,,,,,,,,,,,,,,,,,,2023-03-22_22h04.04.242,BZ,2022.2.4,None,
,,,,,,33,This map shows the levels of a certain type of pollution in this country:,How severe do you think the environmental pollution in this pointed region is?,NA,0,13cn,images/pointed_maps_images/13cn.jpeg,,,,,,,,,,,,,0,23,23,32,,,,,,,,,,,,,,,,,,,,,,,,,,,,,,,,,,,,,,,,86.73007918102667,86.73007918102667,86.73007918102667,86.73007918102667,86.73007918102667,86.87141655699816,1.6479166666666667,0.29168274998664856,space,0.16983085800893605,,,,,,,,,,,,,,,,,,,,,2023-03-22_22h04.04.242,BZ,2022.2.4,None,
,,,,,,47,This map shows the levels of a certain type of pollution in this country:,How severe do you think the environmental pollution in this pointed region is?,NA,0,7cs,images/pointed_maps_images/7cs.jpeg,,,,,,,,,,,,,0,24,24,46,,,,,,,,,,,,,,,,,,,,,,,,,,,,,,,,,,,,,,,,87.08113125304226,87.08113125304226,87.08113125304226,87.08113125304226,87.08113125304226,87.18778928706888,1.6479166666666667,0.0910418990533799,space,0.013079260941594839,,,,,,,,,,,,,,,,,,,,,2023-03-22_22h04.04.242,BZ,2022.2.4,None,
,,,,,,17,This map shows the levels of a certain type of pollution in this country:,How severe do you think the environmental pollution in this pointed region is?,NA,0,17cs,images/pointed_maps_images/17cs.jpeg,,,,,,,,,,,,,0,25,25,16,,,,,,,,,,,,,,,,,,,,,,,,,,,,,,,,,,,,,,,,87.2306596370181,87.2306596370181,87.2306596370181,87.2306596370181,87.2306596370181,87.35495360498317,1.6479166666666667,0.10995284502860159,space,0.021580712986178696,,,,,,,,,,,,,,,,,,,,,2023-03-22_22h04.04.242,BZ,2022.2.4,None,
,,,,,,51,This map shows the levels of a certain type of pollution in this country:,How severe do you think the environmental pollution in this pointed region is?,NA,0,11cs,images/pointed_maps_images/11cs.jpeg,,,,,,,,,,,,,0,26,26,50,,,,,,,,,,,,,,,,,,,,,,,,,,,,,,,,,,,,,,,,87.41432208998594,87.41432208998594,87.41432208998594,87.41432208998594,87.41432208998594,87.50447454396635,1.6479166666666667,0.0735406210878864,space,0.03837929095607251,,,,,,,,,,,,,,,,,,,,,2023-03-22_22h04.04.242,BZ,2022.2.4,None,
,,,,,,40,This map shows the levels of a certain type of pollution in this country:,How severe do you think the environmental pollution in this pointed region is?,NA,0,20cs,images/pointed_maps_images/20cs.jpeg,,,,,,,,,,,,,0,27,27,39,,,,,,,,,,,,,,,,,,,,,,,,,,,,,,,,,,,,,,,,87.5755936120404,87.5755936120404,87.5755936120404,87.5755936120404,87.5755936120404,87.67104813398328,1.6479166666666667,0.07620750099886209,space,0.03209317603614181,,,,,,,,,,,,,,,,,,,,,2023-03-22_22h04.04.242,BZ,2022.2.4,None,
,,,,,,60,This map shows the levels of a certain type of pollution in this country:,How severe do you think the environmental pollution in this pointed region is?,NA,0,20cn,images/pointed_maps_images/20cn.jpeg,,,,,,,,,,,,,0,28,28,59,,,,,,,,,,,,,,,,,,,,,,,,,,,,,,,,,,,,,,,,87.72825433802791,87.72825433802791,87.72825433802791,87.72825433802791,87.72825433802791,87.83780574402772,1.6479166666666667,0.09288817003834993,space,0.021860379027202725,,,,,,,,,,,,,,,,,,,,,2023-03-22_22h04.04.242,BZ,2022.2.4,None,
,,,,,,58,This map shows the levels of a certain type of pollution in this country:,How severe do you think the environmental pollution in this pointed region is?,NA,0,18in,images/pointed_maps_images/18in.jpeg,,,,,,,,,,,,,0,29,29,57,,,,,,,,,,,,,,,,,,,,,,,,,,,,,,,,,,,,,,,,87.89541205996647,87.89541205996647,87.89541205996647,87.89541205996647,87.89541205996647,87.98758697905578,1.6479166666666667,0.07542546198237687,space,0.04049471393227577,,,,,,,,,,,,,,,,,,,,,2023-03-22_22h04.04.242,BZ,2022.2.4,None,
,,,,,,80,This map shows the levels of a certain type of pollution in this country:,How severe do you think the environmental pollution in this pointed region is?,NA,0,20is,images/pointed_maps_images/20is.jpeg,,,,,,,,,,,,,0,30,30,79,,,,,,,,,,,,,,,,,,,,,,,,,,,,,,,,,,,,,,,,88.06129188800696,88.06129188800696,88.06129188800696,88.06129188800696,88.06129188800696,88.1544503980549,1.6479166666666667,0.07644650794100016,space,0.020709370961412787,,,,,,,,,,,,,,,,,,,,,2023-03-22_22h04.04.242,BZ,2022.2.4,None,
,,,,,,35,This map shows the levels of a certain type of pollution in this country:,How severe do you think the environmental pollution in this pointed region is?,NA,0,15in,images/pointed_maps_images/15in.jpeg,,,,,,,,,,,,,0,31,31,34,,,,,,,,,,,,,,,,,,,,,,,,,,,,,,,,,,,,,,,,88.20968836697284,88.20968836697284,88.20968836697284,88.20968836697284,88.20968836697284,88.3049829499796,1.6479166666666667,0.07700324396137148,space,0.04798079910688102,,,,,,,,,,,,,,,,,,,,,2023-03-22_22h04.04.242,BZ,2022.2.4,None,
,,,,,,71,This map shows the levels of a certain type of pollution in this country:,How severe do you think the environmental pollution in this pointed region is?,NA,0,11cn,images/pointed_maps_images/11cn.jpeg,,,,,,,,,,,,,0,32,32,70,,,,,,,,,,,,,,,,,,,,,,,,,,,,,,,,,,,,,,,,88.38329030305613,88.38329030305613,88.38329030305613,88.38329030305613,88.38329030305613,88.45450903405435,1.6479166666666667,0.058278394979424775,space,0.05547074996866286,,,,,,,,,,,,,,,,,,,,,2023-03-22_22h04.04.242,BZ,2022.2.4,None,
,,,,,,20,This map shows the levels of a certain type of pollution in this country:,How severe do you think the environmental pollution in this pointed region is?,NA,0,20in,images/pointed_maps_images/20in.jpeg,,,,,,,,,,,,,0,33,33,19,,,,,,,,,,,,,,,,,,,,,,,,,,,,,,,,,,,,,,,,88.54397528502159,88.54397528502159,88.54397528502159,88.54397528502159,88.54397528502159,88.63801036204677,1.6479166666666667,0.07584475702606142,space,0.037476105033420026,,,,,,,,,,,,,,,,,,,,,2023-03-22_22h04.04.242,BZ,2022.2.4,None,
,,,,,,68,This map shows the levels of a certain type of pollution in this country:,How severe do you think the environmental pollution in this pointed region is?,NA,0,8is,images/pointed_maps_images/8is.jpeg,,,,,,,,,,,,,0,34,34,67,,,,,,,,,,,,,,,,,,,,,,,,,,,,,,,,,,,,,,,,88.71037447697017,88.71037447697017,88.71037447697017,88.71037447697017,88.71037447697017,88.78821603802498,1.6479166666666667,0.058865073951892555,space,0.055653032031841576,,,,,,,,,,,,,,,,,,,,,2023-03-22_22h04.04.242,BZ,2022.2.4,None,
,,,,,,30,This map shows the levels of a certain type of pollution in this country:,How severe do you think the environmental pollution in this pointed region is?,NA,0,10is,images/pointed_maps_images/10is.jpeg,,,,,,,,,,,,,0,35,35,29,,,,,,,,,,,,,,,,,,,,,,,,,,,,,,,,,,,,,,,,88.8829708340345,88.8829708340345,88.8829708340345,88.8829708340345,88.8829708340345,88.97157862607855,1.6479166666666667,0.07380921102594584,space,0.06244706595316529,,,,,,,,,,,,,,,,,,,,,2023-03-22_22h04.04.242,BZ,2022.2.4,None,
,,,,,,50,This map shows the levels of a certain type of pollution in this country:,How severe do you think the environmental pollution in this pointed region is?,NA,0,10in,images/pointed_maps_images/10in.jpeg,,,,,,,,,,,,,0,36,36,49,,,,,,,,,,,,,,,,,,,,,,,,,,,,,,,,,,,,,,,,89.06676437507849,89.06676437507849,89.06676437507849,89.06676437507849,89.06676437507849,89.15461638499983,1.6479166666666667,0.07367163198068738,space,0.06272790499497205,,,,,,,,,,,,,,,,,,,,,2023-03-22_22h04.04.242,BZ,2022.2.4,None,
,,,,,,62,This map shows the levels of a certain type of pollution in this country:,How severe do you think the environmental pollution in this pointed region is?,NA,0,2cs,images/pointed_maps_images/2cs.jpeg,,,,,,,,,,,,,0,37,37,61,,,,,,,,,,,,,,,,,,,,,,,,,,,,,,,,,,,,,,,,89.24595205904916,89.24595205904916,89.24595205904916,89.24595205904916,89.24595205904916,89.30457668402232,1.6479166666666667,0.04223190597258508,space,0.07703957497142255,,,,,,,,,,,,,,,,,,,,,2023-03-22_22h04.04.242,BZ,2022.2.4,None,
,,,,,,31,This map shows the levels of a certain type of pollution in this country:,How severe do you think the environmental pollution in this pointed region is?,NA,0,11in,images/pointed_maps_images/11in.jpeg,,,,,,,,,,,,,0,38,38,30,,,,,,,,,,,,,,,,,,,,,,,,,,,,,,,,,,,,,,,,89.41335303604137,89.41335303604137,89.41335303604137,89.41335303604137,89.41335303604137,89.47149438597262,1.6479166666666667,0.04165423905942589,space,0.09076771896798164,,,,,,,,,,,,,,,,,,,,,2023-03-22_22h04.04.242,BZ,2022.2.4,None,
,,,,,,54,This map shows the levels of a certain type of pollution in this country:,How severe do you think the environmental pollution in this pointed region is?,NA,0,14in,images/pointed_maps_images/14in.jpeg,,,,,,,,,,,,,0,39,39,53,,,,,,,,,,,,,,,,,,,,,,,,,,,,,,,,,,,,,,,,89.5994070089655,89.5994070089655,89.5994070089655,89.5994070089655,89.5994070089655,89.75477860099636,1.6479166666666667,0.2909026190172881,space,0.15290826302953064,,,,,,,,,,,,,,,,,,,,,2023-03-22_22h04.04.242,BZ,2022.2.4,None,
,,,,,,14,This map shows the levels of a certain type of pollution in this country:,How severe do you think the environmental pollution in this pointed region is?,NA,0,14cn,images/pointed_maps_images/14cn.jpeg,,,,,,,,,,,,,0,40,40,13,,,,,,,,,,,,,,,,,,,,,,,,,,,,,,,,,,,,,,,,89.9536644150503,89.9536644150503,89.9536644150503,89.9536644150503,89.9536644150503,90.08794809598476,1.6479166666666667,0.2531911600381136,space,0.17664828500710428,,,,,,,,,,,,,,,,,,,,,2023-03-22_22h04.04.242,BZ,2022.2.4,None,
,,,,,,67,This map shows the levels of a certain type of pollution in this country:,How severe do you think the environmental pollution in this pointed region is?,NA,0,7cn,images/pointed_maps_images/7cn.jpeg,,,,,,,,,,,,,0,41,41,66,,,,,,,,,,,,,,,,,,,,,,,,,,,,,,,,,,,,,,,,90.30578955402598,90.30578955402598,90.30578955402598,90.30578955402598,90.30578955402598,90.38799049798399,1.6479166666666667,0.07123871392104775,space,0.06551850994583219,,,,,,,,,,,,,,,,,,,,,2023-03-22_22h04.04.242,BZ,2022.2.4,None,
,,,,,,27,This map shows the levels of a certain type of pollution in this country:,How severe do you think the environmental pollution in this pointed region is?,NA,0,7in,images/pointed_maps_images/7in.jpeg,,,,,,,,,,,,,0,42,42,26,,,,,,,,,,,,,,,,,,,,,,,,,,,,,,,,,,,,,,,,90.48372448200826,90.48372448200826,90.48372448200826,90.48372448200826,90.48372448200826,90.55473604798317,1.6479166666666667,0.05748072394635528,space,0.07024016603827477,,,,,,,,,,,,,,,,,,,,,2023-03-22_22h04.04.242,BZ,2022.2.4,None,
,,,,,,7,This map shows the levels of a certain type of pollution in this country:,How severe do you think the environmental pollution in this pointed region is?,NA,0,7is,images/pointed_maps_images/7is.jpeg,,,,,,,,,,,,,0,43,43,6,,,,,,,,,,,,,,,,,,,,,,,,,,,,,,,,,,,,,,,,90.66207419498824,90.66207419498824,90.66207419498824,90.66207419498824,90.66207419498824,90.72125152905937,1.6479166666666667,0.0412836039904505,space,0.09902409708593041,,,,,,,,,,,,,,,,,,,,,2023-03-22_22h04.04.242,BZ,2022.2.4,None,
,,,,,,44,This map shows the levels of a certain type of pollution in this country:,How severe do you think the environmental pollution in this pointed region is?,NA,0,4cn,images/pointed_maps_images/4cn.jpeg,,,,,,,,,,,,,0,44,44,43,,,,,,,,,,,,,,,,,,,,,,,,,,,,,,,,,,,,,,,,90.85913523100317,90.85913523100317,90.85913523100317,90.85913523100317,90.85913523100317,90.88795773102902,1.6479166666666667,0.021716102957725525,space,0.11788009200245142,,,,,,,,,,,,,,,,,,,,,2023-03-22_22h04.04.242,BZ,2022.2.4,None,
,,,,,,66,This map shows the levels of a certain type of pollution in this country:,How severe do you think the environmental pollution in this pointed region is?,NA,0,6cs,images/pointed_maps_images/6cs.jpeg,,,,,,,,,,,,,0,45,45,65,,,,,,,,,,,,,,,,,,,,,,,,,,,,,,,,,,,,,,,,91.05023540207185,91.05023540207185,91.05023540207185,91.05023540207185,91.05023540207185,91.22173379105516,1.6479166666666667,0.3037269429769367,space,0.13226827094331384,,,,,,,,,,,,,,,,,,,,,2023-03-22_22h04.04.242,BZ,2022.2.4,None,
,,,,,,23,This map shows the levels of a certain type of pollution in this country:,How severe do you think the environmental pollution in this pointed region is?,NA,0,3in,images/pointed_maps_images/3in.jpeg,,,,,,,,,,,,,0,46,46,22,,,,,,,,,,,,,,,,,,,,,,,,,,,,,,,,,,,,,,,,91.38998057506979,91.38998057506979,91.38998057506979,91.38998057506979,91.38998057506979,91.55461452400777,1.6479166666666667,0.3181792290415615,space,0.15704690595157444,,,,,,,,,,,,,,,,,,,,,2023-03-22_22h04.04.242,BZ,2022.2.4,None,
,,,,,,41,This map shows the levels of a certain type of pollution in this country:,How severe do you think the environmental pollution in this pointed region is?,NA,0,1is,images/pointed_maps_images/1is.jpeg,,,,,,,,,,,,,0,47,47,40,,,,,,,,,,,,,,,,,,,,,,,,,,,,,,,,,,,,,,,,91.75622383598238,91.75622383598238,91.75622383598238,91.75622383598238,91.75622383598238,91.90488912106957,1.6479166666666667,0.2858284970279783,space,0.1814189120195806,,,,,,,,,,,,,,,,,,,,,2023-03-22_22h04.04.242,BZ,2022.2.4,None,
,,,,,,34,This map shows the levels of a certain type of pollution in this country:,How severe do you think the environmental pollution in this pointed region is?,NA,0,14is,images/pointed_maps_images/14is.jpeg,,,,,,,,,,,,,0,48,48,33,,,,,,,,,,,,,,,,,,,,,,,,,,,,,,,,,,,,,,,,92.11713877297007,92.11713877297007,92.11713877297007,92.11713877297007,92.11713877297007,92.22176397300791,1.6479166666666667,0.09057332994416356,space,0.031711985007859766,,,,,,,,,,,,,,,,,,,,,2023-03-22_22h04.04.242,BZ,2022.2.4,None,
,,,,,,49,This map shows the levels of a certain type of pollution in this country:,How severe do you think the environmental pollution in this pointed region is?,NA,0,9is,images/pointed_maps_images/9is.jpeg,,,,,,,,,,,,,0,49,49,48,,,,,,,,,,,,,,,,,,,,,,,,,,,,,,,,,,,,,,,,92.28635362407658,92.28635362407658,92.28635362407658,92.28635362407658,92.28635362407658,92.37177384400275,1.6479166666666667,0.07292298402171582,space,0.06385242706164718,,,,,,,,,,,,,,,,,,,,,2023-03-22_22h04.04.242,BZ,2022.2.4,None,
,,,,,,13,This map shows the levels of a certain type of pollution in this country:,How severe do you think the environmental pollution in this pointed region is?,NA,0,13cs,images/pointed_maps_images/13cs.jpeg,,,,,,,,,,,,,0,50,50,12,,,,,,,,,,,,,,,,,,,,,,,,,,,,,,,,,,,,,,,,92.46952586702537,92.46952586702537,92.46952586702537,92.46952586702537,92.46952586702537,92.50395750603639,1.6479166666666667,0.1939498509746045,space,0.1342004220932722,,,,,,,,,,,,,,,,,,,,,2023-03-22_22h04.04.242,BZ,2022.2.4,None,
,,,,,,70,This map shows the levels of a certain type of pollution in this country:,How severe do you think the environmental pollution in this pointed region is?,NA,0,10cs,images/pointed_maps_images/10cs.jpeg,,,,,,,,,,,,,0,51,51,69,,,,,,,,,,,,,,,,,,,,,,,,,,,,,,,,,,,,,,,,92.67794271802995,92.67794271802995,92.67794271802995,92.67794271802995,92.67794271802995,92.85449416807387,1.6479166666666667,0.310318395961076,space,0.1202429310651496,,,,,,,,,,,,,,,,,,,,,2023-03-22_22h04.04.242,BZ,2022.2.4,None,
,,,,,,64,This map shows the levels of a certain type of pollution in this country:,How severe do you think the environmental pollution in this pointed region is?,NA,0,4is,images/pointed_maps_images/4is.jpeg,,,,,,,,,,,,,0,52,52,63,,,,,,,,,,,,,,,,,,,,,,,,,,,,,,,,,,,,,,,,93.01495528104715,93.01495528104715,93.01495528104715,93.01495528104715,93.01495528104715,93.18769642501138,1.6479166666666667,0.30501078302040696,space,0.13450861908495426,,,,,,,,,,,,,,,,,,,,,2023-03-22_22h04.04.242,BZ,2022.2.4,None,
,,,,,,74,This map shows the levels of a certain type of pollution in this country:,How severe do you think the environmental pollution in this pointed region is?,NA,0,14cs,images/pointed_maps_images/14cs.jpeg,,,,,,,,,,,,,0,53,53,73,,,,,,,,,,,,,,,,,,,,,,,,,,,,,,,,,,,,,,,,93.35951316903811,93.35951316903811,93.35951316903811,93.35951316903811,93.35951316903811,93.5045263649663,1.6479166666666667,0.12563227699138224,space,0.006759962998330593,,,,,,,,,,,,,,,,,,,,,2023-03-22_22h04.04.242,BZ,2022.2.4,None,
,,,,,,4,This map shows the levels of a certain type of pollution in this country:,How severe do you think the environmental pollution in this pointed region is?,NA,0,4in,images/pointed_maps_images/4in.jpeg,,,,,,,,,,,,,0,54,54,3,,,,,,,,,,,,,,,,,,,,,,,,,,,,,,,,,,,,,,,,93.54655492899474,93.54655492899474,93.54655492899474,93.54655492899474,93.54655492899474,93.67170381103642,1.6479166666666667,0.1082062249770388,space,0.006199855008162558,,,,,,,,,,,,,,,,,,,,,2023-03-22_22h04.04.242,BZ,2022.2.4,None,
,,,,,,77,This map shows the levels of a certain type of pollution in this country:,How severe do you think the environmental pollution in this pointed region is?,NA,0,17in,images/pointed_maps_images/17in.jpeg,,,,,,,,,,,,,0,55,55,76,,,,,,,,,,,,,,,,,,,,,,,,,,,,,,,,,,,,,,,,93.72131211403757,93.72131211403757,93.72131211403757,93.72131211403757,93.72131211403757,93.80445159797091,1.6479166666666667,0.07093797402922064,space,0.039987043011933565,,,,,,,,,,,,,,,,,,,,,2023-03-22_22h04.04.242,BZ,2022.2.4,None,
,,,,,,32,This map shows the levels of a certain type of pollution in this country:,How severe do you think the environmental pollution in this pointed region is?,NA,0,12cs,images/pointed_maps_images/12cs.jpeg,,,,,,,,,,,,,0,56,56,31,,,,,,,,,,,,,,,,,,,,,,,,,,,,,,,,,,,,,,,,93.8861106550321,93.8861106550321,93.8861106550321,93.8861106550321,93.8861106550321,93.98791800602339,1.6479166666666667,0.09022651007398963,space,0.026791081996634603,,,,,,,,,,,,,,,,,,,,,2023-03-22_22h04.04.242,BZ,2022.2.4,None,
,,,,,,38,This map shows the levels of a certain type of pollution in this country:,How severe do you think the environmental pollution in this pointed region is?,NA,0,18is,images/pointed_maps_images/18is.jpeg,,,,,,,,,,,,,0,57,57,37,,,,,,,,,,,,,,,,,,,,,,,,,,,,,,,,,,,,,,,,94.0489098810358,94.0489098810358,94.0489098810358,94.0489098810358,94.0489098810358,94.13788641407155,1.6479166666666667,0.07618398708291352,space,0.046563535113818944,,,,,,,,,,,,,,,,,,,,,2023-03-22_22h04.04.242,BZ,2022.2.4,None,
,,,,,,75,This map shows the levels of a certain type of pollution in this country:,How severe do you think the environmental pollution in this pointed region is?,NA,0,15cn,images/pointed_maps_images/15cn.jpeg,,,,,,,,,,,,,0,58,58,74,,,,,,,,,,,,,,,,,,,,,,,,,,,,,,,,,,,,,,,,94.21668266202323,94.21668266202323,94.21668266202323,94.21668266202323,94.21668266202323,94.30484688200522,1.6479166666666667,0.07519269501790404,space,0.030649256077595055,,,,,,,,,,,,,,,,,,,,,2023-03-22_22h04.04.242,BZ,2022.2.4,None,
,,,,,,43,This map shows the levels of a certain type of pollution in this country:,How severe do you think the environmental pollution in this pointed region is?,NA,0,3cs,images/pointed_maps_images/3cs.jpeg,,,,,,,,,,,,,0,59,59,42,,,,,,,,,,,,,,,,,,,,,,,,,,,,,,,,,,,,,,,,94.3668620120734,94.3668620120734,94.3668620120734,94.3668620120734,94.3668620120734,94.45396180299576,1.6479166666666667,0.07486004894599319,space,0.07657405606005341,,,,,,,,,,,,,,,,,,,,,2023-03-22_22h04.04.242,BZ,2022.2.4,None,
,,,,,,48,This map shows the levels of a certain type of pollution in this country:,How severe do you think the environmental pollution in this pointed region is?,NA,0,8cn,images/pointed_maps_images/8cn.jpeg,,,,,,,,,,,,,0,60,60,47,,,,,,,,,,,,,,,,,,,,,,,,,,,,,,,,,,,,,,,,94.56541585596278,94.56541585596278,94.56541585596278,94.56541585596278,94.56541585596278,94.58777045400348,1.6479166666666667,0.01890852500218898,space,0.13236063602380455,,,,,,,,,,,,,,,,,,,,,2023-03-22_22h04.04.242,BZ,2022.2.4,None,
,,,,,,57,This map shows the levels of a certain type of pollution in this country:,How severe do you think the environmental pollution in this pointed region is?,NA,0,17is,images/pointed_maps_images/17is.jpeg,,,,,,,,,,,,,0,61,61,56,,,,,,,,,,,,,,,,,,,,,,,,,,,,,,,,,,,,,,,,94.748792145052,94.748792145052,94.748792145052,94.748792145052,94.748792145052,94.93779716000427,1.6479166666666667,0.34101320803165436,space,0.14387006999459118,,,,,,,,,,,,,,,,,,,,,2023-03-22_22h04.04.242,BZ,2022.2.4,None,
,,,,,,53,This map shows the levels of a certain type of pollution in this country:,How severe do you think the environmental pollution in this pointed region is?,NA,0,13is,images/pointed_maps_images/13is.jpeg,,,,,,,,,,,,,0,62,62,52,,,,,,,,,,,,,,,,,,,,,,,,,,,,,,,,,,,,,,,,95.11389202007558,95.11389202007558,95.11389202007558,95.11389202007558,95.11389202007558,95.25487040402368,1.6479166666666667,0.12384019396267831,space,0.009149533929303288,,,,,,,,,,,,,,,,,,,,,2023-03-22_22h04.04.242,BZ,2022.2.4,None,
,,,,,,8,This map shows the levels of a certain type of pollution in this country:,How severe do you think the environmental pollution in this pointed region is?,NA,0,8in,images/pointed_maps_images/8in.jpeg,,,,,,,,,,,,,0,63,63,7,,,,,,,,,,,,,,,,,,,,,,,,,,,,,,,,,,,,,,,,95.29896442301106,95.29896442301106,95.29896442301106,95.29896442301106,95.29896442301106,95.42172573599964,1.6479166666666667,0.10770029900595546,space,0.018899635993875563,,,,,,,,,,,,,,,,,,,,,2023-03-22_22h04.04.242,BZ,2022.2.4,None,
,,,,,,12,This map shows the levels of a certain type of pollution in this country:,How severe do you think the environmental pollution in this pointed region is?,NA,0,12in,images/pointed_maps_images/12in.jpeg,,,,,,,,,,,,,0,64,64,11,,,,,,,,,,,,,,,,,,,,,,,,,,,,,,,,,,,,,,,,95.48319477704354,95.48319477704354,95.48319477704354,95.48319477704354,95.48319477704354,95.60483682097401,1.6479166666666667,0.10546313296072185,space,0.028048680047504604,,,,,,,,,,,,,,,,,,,,,2023-03-22_22h04.04.242,BZ,2022.2.4,None,
,,,,,,46,This map shows the levels of a certain type of pollution in this country:,How severe do you think the environmental pollution in this pointed region is?,NA,0,6in,images/pointed_maps_images/6in.jpeg,,,,,,,,,,,,,0,65,65,45,,,,,,,,,,,,,,,,,,,,,,,,,,,,,,,,,,,,,,,,95.66803116805386,95.66803116805386,95.66803116805386,95.66803116805386,95.66803116805386,95.75498841598164,1.6479166666666667,0.07469740498345345,space,0.048906452022492886,,,,,,,,,,,,,,,,,,,,,2023-03-22_22h04.04.242,BZ,2022.2.4,None,
,,,,,,59,This map shows the levels of a certain type of pollution in this country:,How severe do you think the environmental pollution in this pointed region is?,NA,0,19cs,images/pointed_maps_images/19cs.jpeg,,,,,,,,,,,,,0,66,66,58,,,,,,,,,,,,,,,,,,,,,,,,,,,,,,,,,,,,,,,,95.83769029704854,95.83769029704854,95.83769029704854,95.83769029704854,95.83769029704854,95.9380255000433,1.6479166666666667,0.08901842997875065,space,0.05223757098428905,,,,,,,,,,,,,,,,,,,,,2023-03-22_22h04.04.242,BZ,2022.2.4,None,
,,,,,,28,This map shows the levels of a certain type of pollution in this country:,How severe do you think the environmental pollution in this pointed region is?,NA,0,8cs,images/pointed_maps_images/8cs.jpeg,,,,,,,,,,,,,0,67,67,27,,,,,,,,,,,,,,,,,,,,,,,,,,,,,,,,,,,,,,,,96.02873586805072,96.02873586805072,96.02873586805072,96.02873586805072,96.02873586805072,96.10482782498002,1.6479166666666667,0.05861404200550169,space,0.06813616398721933,,,,,,,,,,,,,,,,,,,,,2023-03-22_22h04.04.242,BZ,2022.2.4,None,
,,,,,,25,This map shows the levels of a certain type of pollution in this country:,How severe do you think the environmental pollution in this pointed region is?,NA,0,5cn,images/pointed_maps_images/5cn.jpeg,,,,,,,,,,,,,0,68,68,24,,,,,,,,,,,,,,,,,,,,,,,,,,,,,,,,,,,,,,,,96.21197757904883,96.21197757904883,96.21197757904883,96.21197757904883,96.21197757904883,96.23827268800233,1.6479166666666667,0.01620036899112165,space,0.1019208231009543,,,,,,,,,,,,,,,,,,,,,2023-03-22_22h04.04.242,BZ,2022.2.4,None,
,,,,,,1,This map shows the levels of a certain type of pollution in this country:,How severe do you think the environmental pollution in this pointed region is?,NA,0,1cs,images/pointed_maps_images/1cs.jpeg,,,,,,,,,,,,,0,69,69,0,,,,,,,,,,,,,,,,,,,,,,,,,,,,,,,,,,,,,,,,96.37812610703986,96.37812610703986,96.37812610703986,96.37812610703986,96.37812610703986,96.43798369902652,1.6479166666666667,0.04253669397439808,space,0.08831019699573517,,,,,,,,,,,,,,,,,,,,,2023-03-22_22h04.04.242,BZ,2022.2.4,None,
,,,,,,37,This map shows the levels of a certain type of pollution in this country:,How severe do you think the environmental pollution in this pointed region is?,NA,0,17cn,images/pointed_maps_images/17cn.jpeg,,,,,,,,,,,,,0,70,70,36,,,,,,,,,,,,,,,,,,,,,,,,,,,,,,,,,,,,,,,,96.56210919097066,96.56210919097066,96.56210919097066,96.56210919097066,96.56210919097066,96.58772743400186,1.6479166666666667,0.15901346399914473,space,0.14213055302388966,,,,,,,,,,,,,,,,,,,,,2023-03-22_22h04.04.242,BZ,2022.2.4,None,
,,,,,,18,This map shows the levels of a certain type of pollution in this country:,How severe do you think the environmental pollution in this pointed region is?,NA,0,18cn,images/pointed_maps_images/18cn.jpeg,,,,,,,,,,,,,0,71,71,17,,,,,,,,,,,,,,,,,,,,,,,,,,,,,,,,,,,,,,,,96.76459674304351,96.76459674304351,96.76459674304351,96.76459674304351,96.76459674304351,96.93786543200258,1.6479166666666667,0.3252211019862443,space,0.18267488002311438,,,,,,,,,,,,,,,,,,,,,2023-03-22_22h04.04.242,BZ,2022.2.4,None,
,,,,,,2,This map shows the levels of a certain type of pollution in this country:,How severe do you think the environmental pollution in this pointed region is?,NA,0,2cn,images/pointed_maps_images/2cn.jpeg,,,,,,,,,,,,,0,72,72,1,,,,,,,,,,,,,,,,,,,,,,,,,,,,,,,,,,,,,,,,97.15289568004664,97.15289568004664,97.15289568004664,97.15289568004664,97.15289568004664,97.43796598503832,1.6479166666666667,0.27138966298662126,space,0.06323631794657558,,,,,,,,,,,,,,,,,,,,,2023-03-22_22h04.04.242,BZ,2022.2.4,None,
,,,,,,10,This map shows the levels of a certain type of pollution in this country:,How severe do you think the environmental pollution in this pointed region is?,NA,0,10cn,images/pointed_maps_images/10cn.jpeg,,,,,,,,,,,,,0,73,73,9,,,,,,,,,,,,,,,,,,,,,,,,,,,,,,,,,,,,,,,,97.53355068806559,97.53355068806559,97.53355068806559,97.53355068806559,97.53355068806559,97.6048875330016,1.6479166666666667,0.058501916006207466,space,0.07480491406749934,,,,,,,,,,,,,,,,,,,,,2023-03-22_22h04.04.242,BZ,2022.2.4,None,
,,,,,,21,This map shows the levels of a certain type of pollution in this country:,How severe do you think the environmental pollution in this pointed region is?,NA,0,1cn,images/pointed_maps_images/1cn.jpeg,,,,,,,,,,,,,0,74,74,20,,,,,,,,,,,,,,,,,,,,,,,,,,,,,,,,,,,,,,,,97.71514693903737,97.71514693903737,97.71514693903737,97.71514693903737,97.71514693903737,97.9377544199815,1.6479166666666667,0.37519152695313096,space,0.16590865899343044,,,,,,,,,,,,,,,,,,,,,2023-03-22_22h04.04.242,BZ,2022.2.4,None,
,,,,,,79,This map shows the levels of a certain type of pollution in this country:,How severe do you think the environmental pollution in this pointed region is?,NA,0,19cn,images/pointed_maps_images/19cn.jpeg,,,,,,,,,,,,,0,75,75,78,,,,,,,,,,,,,,,,,,,,,,,,,,,,,,,,,,,,,,,,98.13248504302464,98.13248504302464,98.13248504302464,98.13248504302464,98.13248504302464,98.25407139700837,1.6479166666666667,0.10864170000422746,space,0.02722235000692308,,,,,,,,,,,,,,,,,,,,,2023-03-22_22h04.04.242,BZ,2022.2.4,None,
,,,,,,76,This map shows the levels of a certain type of pollution in this country:,How severe do you think the environmental pollution in this pointed region is?,NA,0,16is,images/pointed_maps_images/16is.jpeg,,,,,,,,,,,,,0,76,76,75,,,,,,,,,,,,,,,,,,,,,,,,,,,,,,,,,,,,,,,,98.31299295497593,98.31299295497593,98.31299295497593,98.31299295497593,98.31299295497593,98.43774194596335,1.6479166666666667,0.10967852897010744,space,0.027666684007272124,,,,,,,,,,,,,,,,,,,,,2023-03-22_22h04.04.242,BZ,2022.2.4,None,
,,,,,,61,This map shows the levels of a certain type of pollution in this country:,How severe do you think the environmental pollution in this pointed region is?,NA,0,1in,images/pointed_maps_images/1in.jpeg,,,,,,,,,,,,,0,77,77,60,,,,,,,,,,,,,,,,,,,,,,,,,,,,,,,,,,,,,,,,98.49546745803673,98.49546745803673,98.49546745803673,98.49546745803673,98.49546745803673,98.62093606602866,1.6479166666666667,0.10902126599103212,space,0.03811913903336972,,,,,,,,,,,,,,,,,,,,,2023-03-22_22h04.04.242,BZ,2022.2.4,None,
,,,,,,3,This map shows the levels of a certain type of pollution in this country:,How severe do you think the environmental pollution in this pointed region is?,NA,0,3is,images/pointed_maps_images/3is.jpeg,,,,,,,,,,,,,0,78,78,2,,,,,,,,,,,,,,,,,,,,,,,,,,,,,,,,,,,,,,,,98.69406024401542,98.69406024401542,98.69406024401542,98.69406024401542,98.69406024401542,98.78783028002363,1.6479166666666667,0.07642502000089735,space,0.051384789985604584,,,,,,,,,,,,,,,,,,,,,2023-03-22_22h04.04.242,BZ,2022.2.4,None,
,,,,,,73,This map shows the levels of a certain type of pollution in this country:,How severe do you think the environmental pollution in this pointed region is?,NA,0,13in,images/pointed_maps_images/13in.jpeg,,,,,,,,,,,,,0,79,79,72,,,,,,,,,,,,,,,,,,,,,,,,,,,,,,,,,,,,,,,,98.88025531498715,98.88025531498715,98.88025531498715,98.88025531498715,98.88025531498715,98.9546219400363,1.6479166666666667,0.05759758409112692,space,0.08149394195061177,,,,,,,,,,,,,,,,,,,,,2023-03-22_22h04.04.242,BZ,2022.2.4,None,
,,,,,,,,,,,,,,,,,,,,,,,,,,,,,,,,,,,,,,,,,,,,,,,,,,,,,,,,,,,,,,,,,,,,,,,,,,,,,,99.0643892880762,99.0643892880762,99.0643892880762,99.0643892880762,99.0643892880762,101.73795765405521,1,space,25.241935705998912,,,,,,,,,,,,2023-03-22_22h04.04.242,BZ,2022.2.4,None,
,,,,,,,,,,,,,,,,,,,,,,,,,,,,,,,,,,,,,,,,,,,,,,,,,,,,,,,,,,,,,,,,,,,,,,,,,,,,,,,,,,,,,,,['space'],[0.10644442192278802],,,,,,,,,,2023-03-22_22h04.04.242,BZ,2022.2.4,None,
,,,,,,,,,,,,,,,,,,,,,,,,,,,,,,,,,,,,,,,,,,,,,,,,,,,,,,,,,,,,,,,,,,,,,,,,,,,,,,,,,,,,,,,,,130.12160183605738,130.12160183605738,130.12160183605738,130.12160183605738, ,,,,,2023-03-22_22h04.04.242,BZ,2022.2.4,None,
,,,,,,,,,,,,,,,,,,,,,,,,,,,,,,,,,,,,,,,,,,,,,,,,,,,,,,,,,,,,,,,,,,,,,,,,,,,,,,,,,,,,,,,,,,,,,,116.62945477897301,,,,,,,,
